{
	"resourceType": "Bundle",
	"type": "collection",
	"entry": [
		{
			"fullUrl": "https://fhir.smarthealthit.org/Patient/23",
			"resource": {
				"resourceType": "Patient",
				"id": "23",
				"name": [
					{
						"given": ["Darth"],
						"family": "Vader"
					},
					{
						"given": ["Anakin"],
						"family": "Skywalker"
					}
				]
			}
		},
		{
			"fullUrl": "urn:uuid:04121321-4af5-424c-a0e1-ed3aab1c349d",
			"resource": {
				"resourceType": "Patient",
				"name": [
					{
						"given": ["Ben"],
						"family": "Kenobi"
					},
					{
						"given": ["Obi-Wan"],
						"family": "Kenobi"
					}
				]
			}
		},
		{
			"fullUrl": "https://fhir.smarthealthit.org/Observation/123",
			"resource": {
				"resourceType": "Observation",
				"id": "123",
				"subject": {
					"reference": "Patient/23"
				},
				"code": {},
				"status": "active"
			}
		},
		{
			"fullUrl": "https://fhir.smarthealthit.org/Observation/56",
			"resource": {
				"resourceType": "Observation",
				"id": "56",
				"subject": {
					"reference": "urn:uuid:04121321-4af5-424c-a0e1-ed3aab1c349d"
				},
				"code": {},
				"status": "active"
			}
		},
		{
			"fullUrl": "https://fhir.smarthealthit.org/Observation/34",
			"resource": {
				"resourceType": "Observation",
				"id": "34",
				"subject": {
					"reference": "https://fhir.smarthealthit.org/dev/Patient/99"
				},
				"code": {},
				"status": "active"
			}
		}
	]
}
